Folder: UniStuff/Praktikum_4/V44/V44/Messdaten (part 2)

File: Z2.UXD
; C:\DIFFDAT1\Praktikum\V44_Ollesch_Annuss\Z2.raw(Diffrac Plus V1.01 file) converted by XCH V1.0
_FILEVERSION=2
_SITE='Deutschland'
_USER='Administrator'
_GONIOMETER_CODE=4885
; D8 Theta/Theta; Special
_SAMPLE_CHANGER_CODE=0
_ATTACHMENTS_CODE=0
_GONIOMETER_RADIUS=350
_FIXED_DIVSLIT=0.600000
_FIXED_SAMPLESLIT=0.000000
_FIXED_DETSLIT=11.66
_MONOCHROMATOR=0
; None
_THIN_FILM='N'
_BETA_FILTER='Y'
_FIXED_ANTISLIT=8.340000
_ANALYZER_CODE=0
; None
_DATEMEASURED='29-Jan-2024 10:05:43'
_WL_UNIT='A'
_WL1=1.540600
_WL2=1.544390
_WL3=1.392220
_WLRATIO=0.500000
_ANODE='Cu'
; (Data for Range number 1)
_DRIVE='Z'
_STEPTIME=1.000000
_STEPSIZE=0.020000
_STEPMODE='S'
_START=-0.500000
_THETA=-0.000800
_2THETA=0.000000
_KHI=0.000000
_PHI=92.46
_X=1.546000
_Y=0.000000
_Z=-0.500000
_DIVERGENCE=0.000000
_ANTISCATTER=0.000000
_DETECTOR=5
_DETECTORSLIT='unkn'
_AUX1=0.000000
_AUX2=0.000000
_AUX3=0.000000
_TIMESTARTED=3.000000
_TEMP_RATE=-1.000000
_TEMP_DELAY=-1.000000
_KV=40
_MA=35
_RANGE_WL=1.540600
_3DPLANE=0
_GONIOMETER=0.000000
_PSDCHANNEL0=0
_2THETACOUNTS
  -0.5000   1182300
  -0.4800   1185140
  -0.4600   1188560
  -0.4400   1189830
  -0.4200   1182190
  -0.4000   1184930
  -0.3800   1183320
  -0.3600   1185730
  -0.3400   1187580
  -0.3200   1185820
  -0.3000   1185340
  -0.2800   1185660
  -0.2600   1191080
  -0.2400   1188220
  -0.2200   1187020
  -0.2000   1187530
  -0.1800   1187540
  -0.1600   1185440
  -0.1400   1187310
  -0.1200   1185400
  -0.1000   1194160
  -0.0800   1185730
  -0.0600   1186480
  -0.0400   1183570
  -0.0200   1184370
   0.0000   1185160
   0.0200   1186350
   0.0400   1197470
   0.0600   1194940
   0.0800   1197140
   0.1000   1208350
   0.1200   1194520
   0.1400   1137020
   0.1600   1036480
   0.1800    876695
   0.2000    706908
   0.2200    533147
   0.2400    360817
   0.2600    211475
   0.2800     95639
   0.3000     28514
   0.3200       727
   0.3400       108
   0.3600        56
   0.3800        55
   0.4000        45
   0.4200        22
   0.4400        20
   0.4600        35
   0.4800        28
   0.5000        24