Folder: UniStuff/Praktikum_4/V44/V44/Messdaten

Note: README.md
# FürDieUni
Alles für den Workshop, das Praktikum u.s.w.

File: Diffus.UXD
; C:\DIFFDAT1\Praktikum\V44_Ollesch_Annuss\Diffus.raw(Diffrac Plus V1.01 file) converted by XCH V1.0
_FILEVERSION=2
_SITE='Deutschland'
_USER='Administrator'
_GONIOMETER_CODE=4885
; D8 Theta/Theta; Special
_SAMPLE_CHANGER_CODE=0
_ATTACHMENTS_CODE=0
_GONIOMETER_RADIUS=350
_FIXED_DIVSLIT=0.600000
_FIXED_SAMPLESLIT=0.000000
_FIXED_DETSLIT=11.66
_MONOCHROMATOR=0
; None
_THIN_FILM='N'
_BETA_FILTER='Y'
_FIXED_ANTISLIT=8.340000
_ANALYZER_CODE=0
; None
_DATEMEASURED='29-Jan-2024 11:58:36'
_WL_UNIT='A'
_WL1=1.540600
_WL2=1.544390
_WL3=1.392220
_WLRATIO=0.500000
_ANODE='Cu'
; (Data for Range number 1)
_DRIVE='THETA'
_STEPTIME=5.000660
_STEPSIZE=0.005000
_STEPMODE='C'
_START=0.000000
_THETA=0.000000
_2THETA=0.100000
_KHI=0.000000
_PHI=92.46
_X=1.546000
_Y=-0.300000
_Z=0.226000
_DIVERGENCE=0.000000
_ANTISCATTER=0.000000
_DETECTOR=5
_DETECTORSLIT='unkn'
_AUX1=0.000000
_AUX2=0.000000
_AUX3=0.000000
_TIMESTARTED=2.000000
_TEMP_RATE=-1.000000
_TEMP_DELAY=-1.000000
_KV=40
_MA=35
_RANGE_WL=1.540600
_3DPLANE=0
_GONIOMETER=0.097500
_PSDCHANNEL0=0
_2THETACOUNTS
   0.0000    634609
   0.0100    435367
   0.0200    297775
   0.0300    237637
   0.0400    216604
   0.0500    153197
   0.0600    105313
   0.0700    107285
   0.0800    115230
   0.0900    109180
   0.1000    106004
   0.1100     87311
   0.1200     74100
   0.1300     61166
   0.1400     44107
   0.1500     35535
   0.1600     30395
   0.1700     26447
   0.1800     22290
   0.1900     18495
   0.2000     14822
   0.2100     11030
   0.2200      7970
   0.2300      5753
   0.2400      4233
   0.2500      3137
   0.2600      2338
   0.2700      2157
   0.2800      1958
   0.2900      1766
   0.3000      1583
   0.3100      1517
   0.3200      1430
   0.3300      1444
   0.3400      1375
   0.3500      1390
   0.3600      1270
   0.3700      1328
   0.3800      1259
   0.3900      1284
   0.4000      1245
   0.4100      1282
   0.4200      1303
   0.4300      1258
   0.4400      1247
   0.4500      1236
   0.4600      1227
   0.4700      1137
   0.4800      1114
   0.4900      1127
   0.5000      1020
   0.5100      1085
   0.5200      1090
   0.5300       932
   0.5400       909
   0.5500       932
   0.5600       931
   0.5700       984
   0.5800      1158
   0.5900      1320
   0.6000      1321
   0.6100      1148
   0.6200       915
   0.6300       421
   0.6400       127
   0.6500        62
   0.6600        52
   0.6700        62
   0.6800        63
   0.6900        57
   0.7000        40
   0.7100        49
   0.7200        41
   0.7300        33
   0.7400        47
   0.7500        38
   0.7600        42
   0.7700        33
   0.7800        28
   0.7900        27
   0.8000        27
   0.8100        38
   0.8200        36
   0.8300        24
   0.8400        27
   0.8500        23
   0.8600        19
   0.8700        30
   0.8800        23
   0.8900        22
   0.9000        16
   0.9100        21
   0.9200        17
   0.9300        24
   0.9400        15
   0.9500        20
   0.9600        15
   0.9700        10
   0.9800        14
   0.9900         9
   1.0000        11
   1.0100        11
   1.0200        14
   1.0300        20
   1.0400        12
   1.0500        18
   1.0600         7
   1.0700         9
   1.0800        10
   1.0900        12
   1.1000         3
   1.1100        11
   1.1200        20
   1.1300         9
   1.1400         7
   1.1500        11
   1.1600         9
   1.1700         6
   1.1800         4
   1.1900        10
   1.2000        12
   1.2100         7
   1.2200         3
   1.2300         4
   1.2400         4
   1.2500         6
   1.2600         5
   1.2700         5
   1.2800         5
   1.2900         3
   1.3000         2
   1.3100         3
   1.3200         5
   1.3300         3
   1.3400         6
   1.3500         1
   1.3600         4
   1.3700         4
   1.3800         2
   1.3900         4
   1.4000         0
   1.4100         4
   1.4200         4
   1.4300         1
   1.4400         4
   1.4500         6
   1.4600         1
   1.4700         5
   1.4800         6
   1.4900         4
   1.5000         1
   1.5100         1
   1.5200         1
   1.5300         5
   1.5400         3
   1.5500         2
   1.5600         1
   1.5700         3
   1.5800         1
   1.5900         1
   1.6000         1
   1.6100         5
   1.6200         2
   1.6300         2
   1.6400         5
   1.6500         2
   1.6600         1
   1.6700         2
   1.6800         0
   1.6900         2
   1.7000         1
   1.7100         2
   1.7200         4
   1.7300         1
   1.7400         1
   1.7500         4
   1.7600         1
   1.7700         0
   1.7800         3
   1.7900         0
   1.8000         1
   1.8100         0
   1.8200         2
   1.8300         4
   1.8400         2
   1.8500         2
   1.8600         1
   1.8700         1
   1.8800         2
   1.8900         0
   1.9000         2
   1.9100         0
   1.9200         2
   1.9300         2
   1.9400         3
   1.9500         2
   1.9600         0
   1.9700         3
   1.9800         1
   1.9900         1
   2.0000         1
   2.0100         2
   2.0200         4
   2.0300         2
   2.0400         2
   2.0500         0
   2.0600         0
   2.0700         0
   2.0800         0
   2.0900         0
   2.1000         1
   2.1100         3
   2.1200         1
   2.1300         3
   2.1400         2
   2.1500         2
   2.1600         1
   2.1700         1
   2.1800         1
   2.1900         0
   2.2000         1
   2.2100         4
   2.2200         0
   2.2300         3
   2.2400         1
   2.2500         0
   2.2600         1
   2.2700         0
   2.2800         2
   2.2900         1
   2.3000         0
   2.3100         3
   2.3200         4
   2.3300         1
   2.3400         0
   2.3500         2
   2.3600         0
   2.3700         0
   2.3800         2
   2.3900         1
   2.4000         0
   2.4100         0
   2.4200         0
   2.4300         0
   2.4400         2
   2.4500         1
   2.4600         0
   2.4700         0
   2.4800         2
   2.4900         0
   2.5000         3

File: GaussScan.UXD
; C:\DIFFDAT1\Praktikum\V44_Ollesch_Annuss\GaussScan.raw(Diffrac Plus V1.01 file) converted by XCH V1.0
_FILEVERSION=2
_SITE='Deutschland'
_USER='Administrator'
_GONIOMETER_CODE=4885
; D8 Theta/Theta; Special
_SAMPLE_CHANGER_CODE=0
_ATTACHMENTS_CODE=0
_GONIOMETER_RADIUS=350
_FIXED_DIVSLIT=0.600000
_FIXED_SAMPLESLIT=0.000000
_FIXED_DETSLIT=11.66
_MONOCHROMATOR=0
; None
_THIN_FILM='N'
_BETA_FILTER='Y'
_FIXED_ANTISLIT=8.340000
_ANALYZER_CODE=0
; None
_DATEMEASURED='29-Jan-2024 09:30:26'
_WL_UNIT='A'
_WL1=1.540600
_WL2=1.544390
_WL3=1.392220
_WLRATIO=0.500000
_ANODE='Cu'
; (Data for Range number 1)
_DRIVE='2THETA'
_STEPTIME=1.000000
_STEPSIZE=0.020000
_STEPMODE='S'
_START=-0.500000
_THETA=0.000000
_2THETA=-0.500000
_KHI=0.000000
_PHI=92.46
_X=0.000000
_Y=0.000000
_Z=-20
_DIVERGENCE=0.000000
_ANTISCATTER=0.000000
_DETECTOR=5
_DETECTORSLIT='unkn'
_AUX1=0.000000
_AUX2=0.000000
_AUX3=0.000000
_TIMESTARTED=2.000000
_TEMP_RATE=-1.000000
_TEMP_DELAY=-1.000000
_KV=40
_MA=35
_RANGE_WL=1.540600
_3DPLANE=0
_GONIOMETER=-0.500000
_PSDCHANNEL0=0
_2THETACOUNTS
  -0.5000       279
  -0.4800       407
  -0.4600       566
  -0.4400       659
  -0.4200       890
  -0.4000      1064
  -0.3800      1365
  -0.3600      1909
  -0.3400      2251
  -0.3200      2824
  -0.3000      3613
  -0.2800      4287
  -0.2600      5129
  -0.2400      6224
  -0.2200      8675
  -0.2000     11824
  -0.1800     15241
  -0.1600     20780
  -0.1400     30488
  -0.1200     46845
  -0.1000     84609
  -0.0800    170520
  -0.0600    416717
  -0.0400    735364
  -0.0200   1050370
   0.0000   1316880
   0.0200   1169410
   0.0400    639284
   0.0600    285964
   0.0800    155638
   0.1000     97924
   0.1200     64987
   0.1400     48379
   0.1600     39469
   0.1800     22939
   0.2000      9492
   0.2200      6171
   0.2400      4379
   0.2600      3644
   0.2800      3097
   0.3000      2755
   0.3200      2050
   0.3400      1514
   0.3600      1131
   0.3800       893
   0.4000       729
   0.4200       617
   0.4400       476
   0.4600       378
   0.4800       333
   0.5000       270

File: Omega2Theta.UXD
; C:\DIFFDAT1\Praktikum\V44_Ollesch_Annuss\Omega2Theta.raw(Diffrac Plus V1.01 file) converted by XCH V1.0
_FILEVERSION=2
_SITE='Deutschland'
_USER='Administrator'
_GONIOMETER_CODE=4885
; D8 Theta/Theta; Special
_SAMPLE_CHANGER_CODE=0
_ATTACHMENTS_CODE=0
_GONIOMETER_RADIUS=350
_FIXED_DIVSLIT=0.600000
_FIXED_SAMPLESLIT=0.000000
_FIXED_DETSLIT=11.66
_MONOCHROMATOR=0
; None
_THIN_FILM='N'
_BETA_FILTER='Y'
_FIXED_ANTISLIT=8.340000
_ANALYZER_CODE=0
; None
_DATEMEASURED='29-Jan-2024 11:15:14'
_WL_UNIT='A'
_WL1=1.540600
_WL2=1.544390
_WL3=1.392220
_WLRATIO=0.500000
_ANODE='Cu'
; (Data for Range number 1)
_DRIVE='THETA'
_STEPTIME=5.000660
_STEPSIZE=0.005000
_STEPMODE='C'
_START=0.000000
_THETA=0.000000
_2THETA=0.000000
_KHI=0.000000
_PHI=92.46
_X=1.546000
_Y=-0.300000
_Z=0.226000
_DIVERGENCE=0.000000
_ANTISCATTER=0.000000
_DETECTOR=5
_DETECTORSLIT='unkn'
_AUX1=0.000000
_AUX2=0.000000
_AUX3=0.000000
_TIMESTARTED=2.000000
_TEMP_RATE=-1.000000
_TEMP_DELAY=-1.000000
_KV=40
_MA=35
_RANGE_WL=1.540600
_3DPLANE=0
_GONIOMETER=-0.002500
_PSDCHANNEL0=0
_2THETACOUNTS
   0.0000   2498310
   0.0100   4515170
   0.0200   4574290
   0.0300   2553920
   0.0400   1456670
   0.0500   1153110
   0.0600   1038490
   0.0700   1014830
   0.0800   1076820
   0.0900   1170800
   0.1000   1225690
   0.1100   1285140
   0.1200   1389680
   0.1300   1506290
   0.1400   1626770
   0.1500   1731560
   0.1600   1780670
   0.1700   1815510
   0.1800   1832780
   0.1900   1930880
   0.2000   2009560
   0.2100   2016880
   0.2200   1825980
   0.2300   1408630
   0.2400    882477
   0.2500    463382
   0.2600    264125
   0.2700    222000
   0.2800    177065
   0.2900    111716
   0.3000     77391
   0.3100     80702
   0.3200     80604
   0.3300     58252
   0.3400     37228
   0.3500     34513
   0.3600     40984
   0.3700     38240
   0.3800     26593
   0.3900     18397
   0.4000     19406
   0.4100     23227
   0.4200     21044
   0.4300     14588
   0.4400     10665
   0.4500     11953
   0.4600     14205
   0.4700     12997
   0.4800      9215
   0.4900      6853
   0.5000      7521
   0.5100      9160
   0.5200      8671
   0.5300      6317
   0.5400      4780
   0.5500      5019
   0.5600      6240
   0.5700      6057
   0.5800      4643
   0.5900      3340
   0.6000      3508
   0.6100      4270
   0.6200      4582
   0.6300      3720
   0.6400      2946
   0.6500      2821
   0.6600      3234
   0.6700      3310
   0.6800      2431
   0.6900      1417
   0.7000      1118
   0.7100      1375
   0.7200      1744
   0.7300      1538
   0.7400      1067
   0.7500       770
   0.7600       872
   0.7700      1223
   0.7800      1106
   0.7900       808
   0.8000       590
   0.8100       578
   0.8200       741
   0.8300       802
   0.8400       676
   0.8500       490
   0.8600       407
   0.8700       548
   0.8800       619
   0.8900       509
   0.9000       379
   0.9100       280
   0.9200       361
   0.9300       434
   0.9400       383
   0.9500       299
   0.9600       219
   0.9700       244
   0.9800       300
   0.9900       296
   1.0000       223
   1.0100       189
   1.0200       156
   1.0300       213
   1.0400       226
   1.0500       201
   1.0600       165
   1.0700       125
   1.0800       132
   1.0900       179
   1.1000       170
   1.1100       134
   1.1200        98
   1.1300       106
   1.1400       131
   1.1500       130
   1.1600        95
   1.1700        77
   1.1800        79
   1.1900        95
   1.2000        94
   1.2100        88
   1.2200        61
   1.2300        49
   1.2400        59
   1.2500        75
   1.2600        67
   1.2700        58
   1.2800        49
   1.2900        38
   1.3000        50
   1.3100        54
   1.3200        37
   1.3300        41
   1.3400        27
   1.3500        54
   1.3600        46
   1.3700        36
   1.3800        26
   1.3900        26
   1.4000        24
   1.4100        37
   1.4200        21
   1.4300        24
   1.4400        18
   1.4500        14
   1.4600        26
   1.4700        30
   1.4800        15
   1.4900        16
   1.5000        11
   1.5100        14
   1.5200        16
   1.5300        22
   1.5400        17
   1.5500         9
   1.5600         6
   1.5700        12
   1.5800         8
   1.5900         9
   1.6000         9
   1.6100        12
   1.6200        12
   1.6300         9
   1.6400        11
   1.6500         9
   1.6600         8
   1.6700         9
   1.6800        13
   1.6900        10
   1.7000         8
   1.7100         5
   1.7200         5
   1.7300        10
   1.7400         3
   1.7500         7
   1.7600         7
   1.7700         7
   1.7800         4
   1.7900         9
   1.8000         2
   1.8100         5
   1.8200        11
   1.8300         9
   1.8400         6
   1.8500         5
   1.8600         3
   1.8700         2
   1.8800         2
   1.8900         3
   1.9000         4
   1.9100         6
   1.9200         3
   1.9300         3
   1.9400         3
   1.9500         3
   1.9600         3
   1.9700         2
   1.9800         1
   1.9900         5
   2.0000         3
   2.0100         5
   2.0200         2
   2.0300         3
   2.0400         0
   2.0500         5
   2.0600         3
   2.0700         4
   2.0800         2
   2.0900         2
   2.1000         4
   2.1100         2
   2.1200         6
   2.1300         2
   2.1400         3
   2.1500         1
   2.1600         0
   2.1700         2
   2.1800         1
   2.1900         1
   2.2000         2
   2.2100         0
   2.2200         4
   2.2300         0
   2.2400         2
   2.2500         3
   2.2600         1
   2.2700         3
   2.2800         4
   2.2900         2
   2.3000         2
   2.3100         2
   2.3200         1
   2.3300         1
   2.3400         1
   2.3500         1
   2.3600         2
   2.3700         2
   2.3800         0
   2.3900         2
   2.4000         0
   2.4100         2
   2.4200         1
   2.4300         2
   2.4400         3
   2.4500         2
   2.4600         4
   2.4700         0
   2.4800         4
   2.4900         0
   2.5000         3

File: RockingCurve1raw.UXD
; C:\DIFFDAT1\Praktikum\V44_Ollesch_Annuss\RockingCurve1raw.raw(Diffrac Plus V1.01 file) converted by XCH V1.0
_FILEVERSION=2
_SITE='Deutschland'
_USER='Administrator'
_GONIOMETER_CODE=4885
; D8 Theta/Theta; Special
_SAMPLE_CHANGER_CODE=0
_ATTACHMENTS_CODE=0
_GONIOMETER_RADIUS=350
_FIXED_DIVSLIT=0.600000
_FIXED_SAMPLESLIT=0.000000
_FIXED_DETSLIT=11.66
_MONOCHROMATOR=0
; None
_THIN_FILM='N'
_BETA_FILTER='Y'
_FIXED_ANTISLIT=8.340000
_ANALYZER_CODE=0
; None
_DATEMEASURED='29-Jan-2024 09:58:27'
_WL_UNIT='A'
_WL1=1.540600
_WL2=1.544390
_WL3=1.392220
_WLRATIO=0.500000
_ANODE='Cu'
; (Data for Range number 1)
_DRIVE='THETA'
_STEPTIME=1.000000
_STEPSIZE=0.040000
_STEPMODE='S'
_START=-1.000000
_THETA=-1.000000
_2THETA=0.000000
_KHI=0.000000
_PHI=92.46
_X=1.546000
_Y=0.000000
_Z=0.226000
_DIVERGENCE=0.000000
_ANTISCATTER=0.000000
_DETECTOR=5
_DETECTORSLIT='unkn'
_AUX1=0.000000
_AUX2=0.000000
_AUX3=0.000000
_TIMESTARTED=3.000000
_TEMP_RATE=-1.000000
_TEMP_DELAY=-1.000000
_KV=40
_MA=35
_RANGE_WL=1.540600
_3DPLANE=0
_GONIOMETER=0.000000
_PSDCHANNEL0=0
_2THETACOUNTS
  -1.0000        31
  -0.9600        32
  -0.9200        32
  -0.8800        32
  -0.8400        34
  -0.8000        50
  -0.7600        42
  -0.7200        58
  -0.6800        76
  -0.6400        95
  -0.6000       120
  -0.5600       154
  -0.5200       240
  -0.4800       761
  -0.4400      8489
  -0.4000     27086
  -0.3600     52943
  -0.3200     84964
  -0.2800    122764
  -0.2400    163673
  -0.2000    229724
  -0.1600    255549
  -0.1200    316253
  -0.0800    378039
  -0.0400    435567
   0.0000    468391
   0.0400    422160
   0.0800    372043
   0.1200    317959
   0.1600    274525
   0.2000    227639
   0.2400    186969
   0.2800    166735
   0.3200    119239
   0.3600     90089
   0.4000     63727
   0.4400     40952
   0.4800     22022
   0.5200      8425
   0.5600      1446
   0.6000       227
   0.6400       131
   0.6800       125
   0.7200       119
   0.7600        82
   0.8000        77
   0.8400        56
   0.8800        46
   0.9200        44
   0.9600        52
   1.0000        51

File: RockingCurve2.UXD
; C:\DIFFDAT1\Praktikum\V44_Ollesch_Annuss\RockingCurve2.raw(Diffrac Plus V1.01 file) converted by XCH V1.0
_FILEVERSION=2
_SITE='Deutschland'
_USER='Administrator'
_GONIOMETER_CODE=4885
; D8 Theta/Theta; Special
_SAMPLE_CHANGER_CODE=0
_ATTACHMENTS_CODE=0
_GONIOMETER_RADIUS=350
_FIXED_DIVSLIT=0.600000
_FIXED_SAMPLESLIT=0.000000
_FIXED_DETSLIT=11.66
_MONOCHROMATOR=0
; None
_THIN_FILM='N'
_BETA_FILTER='Y'
_FIXED_ANTISLIT=8.340000
_ANALYZER_CODE=0
; None
_DATEMEASURED='29-Jan-2024 10:11:32'
_WL_UNIT='A'
_WL1=1.540600
_WL2=1.544390
_WL3=1.392220
_WLRATIO=0.500000
_ANODE='Cu'
; (Data for Range number 1)
_DRIVE='THETA'
_STEPTIME=1.000000
_STEPSIZE=0.040000
_STEPMODE='S'
_START=-1.000000
_THETA=-1.000000
_2THETA=0.300000
_KHI=0.000000
_PHI=92.46
_X=1.546000
_Y=0.000000
_Z=0.223000
_DIVERGENCE=0.000000
_ANTISCATTER=0.000000
_DETECTOR=5
_DETECTORSLIT='unkn'
_AUX1=0.000000
_AUX2=0.000000
_AUX3=0.000000
_TIMESTARTED=3.000000
_TEMP_RATE=-1.000000
_TEMP_DELAY=-1.000000
_KV=40
_MA=35
_RANGE_WL=1.540600
_3DPLANE=0
_GONIOMETER=0.300000
_PSDCHANNEL0=0
_2THETACOUNTS
  -1.0000      2842
  -0.9600      2846
  -0.9200      2887
  -0.8800      2862
  -0.8400      2816
  -0.8000      2858
  -0.7600      2871
  -0.7200      2972
  -0.6800      2863
  -0.6400      2895
  -0.6000      2904
  -0.5600      2862
  -0.5200      2835
  -0.4800      2935
  -0.4400      2853
  -0.4000      2955
  -0.3600      2806
  -0.3200      2835
  -0.2800      2792
  -0.2400      2886
  -0.2000      2887
  -0.1600      2860
  -0.1200      2926
  -0.0800      2888
  -0.0400      2946
   0.0000      2951
   0.0400      3235
   0.0800      7363
   0.1200     82600
   0.1600    175445
   0.2000     12905
   0.2400      3660
   0.2800      2950
   0.3200      2860
   0.3600      2801
   0.4000      2824
   0.4400      2691
   0.4800      2904
   0.5200      2831
   0.5600      2878
   0.6000      2945
   0.6400      2895
   0.6800      2796
   0.7200      3007
   0.7600      2893
   0.8000      2910
   0.8400      2886
   0.8800      2935
   0.9200      2913
   0.9600      2886
   1.0000      2853

File: RockingCurve2_1.UXD
; C:\DIFFDAT1\Praktikum\V44_Ollesch_Annuss\RockingCurve2_1.raw(Diffrac Plus V1.01 file) converted by XCH V1.0
_FILEVERSION=2
_SITE='Deutschland'
_USER='Administrator'
_GONIOMETER_CODE=4885
; D8 Theta/Theta; Special
_SAMPLE_CHANGER_CODE=0
_ATTACHMENTS_CODE=0
_GONIOMETER_RADIUS=350
_FIXED_DIVSLIT=0.600000
_FIXED_SAMPLESLIT=0.000000
_FIXED_DETSLIT=11.66
_MONOCHROMATOR=0
; None
_THIN_FILM='N'
_BETA_FILTER='Y'
_FIXED_ANTISLIT=8.340000
_ANALYZER_CODE=0
; None
_DATEMEASURED='29-Jan-2024 10:17:05'
_WL_UNIT='A'
_WL1=1.540600
_WL2=1.544390
_WL3=1.392220
_WLRATIO=0.500000
_ANODE='Cu'
; (Data for Range number 1)
_DRIVE='THETA'
_STEPTIME=1.000000
_STEPSIZE=0.005000
_STEPMODE='S'
_START=0.000000
_THETA=0.000000
_2THETA=0.300000
_KHI=0.000000
_PHI=92.46
_X=1.546000
_Y=0.000000
_Z=0.223000
_DIVERGENCE=0.000000
_ANTISCATTER=0.000000
_DETECTOR=5
_DETECTORSLIT='unkn'
_AUX1=0.000000
_AUX2=0.000000
_AUX3=0.000000
_TIMESTARTED=2.000000
_TEMP_RATE=-1.000000
_TEMP_DELAY=-1.000000
_KV=40
_MA=35
_RANGE_WL=1.540600
_3DPLANE=0
_GONIOMETER=0.300000
_PSDCHANNEL0=0
_2THETACOUNTS
   0.0000    152583
   0.0050    104215
   0.0100     52138
   0.0150     34088
   0.0200     28266
   0.0250     24699
   0.0300     21508
   0.0350     17791
   0.0400     13990
   0.0450     11064
   0.0500      8329
   0.0550      6714
   0.0600      5772
   0.0650      5039
   0.0700      4438
   0.0750      3908
   0.0800      3727
   0.0850      3579
   0.0900      3542
   0.0950      3326
   0.1000      3230
   0.1050      3197
   0.1100      3064
   0.1150      3050
   0.1200      2929
   0.1250      2914
   0.1300      2997
   0.1350      2971
   0.1400      2903
   0.1450      2832
   0.1500      2852
   0.1550      2918
   0.1600      2883
   0.1650      2886
   0.1700      2877
   0.1750      2937
   0.1800      2813
   0.1850      2897
   0.1900      2944
   0.1950      2893
   0.2000      2865
   0.2050      2876
   0.2100      2938
   0.2150      3023
   0.2200      2921
   0.2250      2921
   0.2300      2969
   0.2350      2955
   0.2400      2935
   0.2450      2990
   0.2500      2861
   0.2550      2851
   0.2600      2943
   0.2650      2952
   0.2700      2896
   0.2750      2872
   0.2800      2895
   0.2850      2807
   0.2900      2983
   0.2950      3002
   0.3000      2965

File: X1Scan.UXD
; C:\DIFFDAT1\Praktikum\V44_Ollesch_Annuss\X1Scan.raw(Diffrac Plus V1.01 file) converted by XCH V1.0
_FILEVERSION=2
_SITE='Deutschland'
_USER='Administrator'
_GONIOMETER_CODE=4885
; D8 Theta/Theta; Special
_SAMPLE_CHANGER_CODE=0
_ATTACHMENTS_CODE=0
_GONIOMETER_RADIUS=350
_FIXED_DIVSLIT=0.600000
_FIXED_SAMPLESLIT=0.000000
_FIXED_DETSLIT=11.66
_MONOCHROMATOR=0
; None
_THIN_FILM='N'
_BETA_FILTER='Y'
_FIXED_ANTISLIT=8.340000
_ANALYZER_CODE=0
; None
_DATEMEASURED='29-Jan-2024 09:54:10'
_WL_UNIT='A'
_WL1=1.540600
_WL2=1.544390
_WL3=1.392220
_WLRATIO=0.500000
_ANODE='Cu'
; (Data for Range number 1)
_DRIVE='X'
_STEPTIME=1.000000
_STEPSIZE=1.000000
_STEPMODE='S'
_START=-20
_THETA=0.000000
_2THETA=0.000000
_KHI=0.000000
_PHI=92.46
_X=-20
_Y=0.000000
_Z=0.226000
_DIVERGENCE=0.000000
_ANTISCATTER=0.000000
_DETECTOR=5
_DETECTORSLIT='unkn'
_AUX1=0.000000
_AUX2=0.000000
_AUX3=0.000000
_TIMESTARTED=5.000000
_TEMP_RATE=-1.000000
_TEMP_DELAY=-1.000000
_KV=40
_MA=35
_RANGE_WL=1.540600
_3DPLANE=0
_GONIOMETER=0.000000
_PSDCHANNEL0=0
_2THETACOUNTS
 -20.0000   1228440
 -19.0000   1221780
 -18.0000   1228320
 -17.0000   1224740
 -16.0000   1230350
 -15.0000   1226290
 -14.0000   1229750
 -13.0000   1227340
 -12.0000   1227080
 -11.0000   1223850
 -10.0000    686297
  -9.0000    442732
  -8.0000    440346
  -7.0000    450908
  -6.0000    464631
  -5.0000    472799
  -4.0000    473020
  -3.0000    476086
  -2.0000    483346
  -1.0000    481323
   0.0000    495251
   1.0000    497115
   2.0000    504360
   3.0000    508863
   4.0000    516660
   5.0000    523770
   6.0000    525524
   7.0000    532618
   8.0000    533613
   9.0000    539886
  10.0000    545487
  11.0000    561572
  12.0000    560750
  13.0000    884666
  14.0000   1226350
  15.0000   1221460
  16.0000   1219380
  17.0000   1222620
  18.0000   1222520
  19.0000   1227290
  20.0000   1219530

File: Z1Scan.UXD
; C:\DIFFDAT1\Praktikum\V44_Ollesch_Annuss\Z1Scan.raw(Diffrac Plus V1.01 file) converted by XCH V1.0
_FILEVERSION=2
_SITE='Deutschland'
_USER='Administrator'
_GONIOMETER_CODE=4885
; D8 Theta/Theta; Special
_SAMPLE_CHANGER_CODE=0
_ATTACHMENTS_CODE=0
_GONIOMETER_RADIUS=350
_FIXED_DIVSLIT=0.600000
_FIXED_SAMPLESLIT=0.000000
_FIXED_DETSLIT=11.66
_MONOCHROMATOR=0
; None
_THIN_FILM='N'
_BETA_FILTER='Y'
_FIXED_ANTISLIT=8.340000
_ANALYZER_CODE=0
; None
_DATEMEASURED='29-Jan-2024 09:47:12'
_WL_UNIT='A'
_WL1=1.540600
_WL2=1.544390
_WL3=1.392220
_WLRATIO=0.500000
_ANODE='Cu'
; (Data for Range number 1)
_DRIVE='Z'
_STEPTIME=1.000000
_STEPSIZE=0.020000
_STEPMODE='S'
_START=-1.000000
_THETA=0.000000
_2THETA=0.000000
_KHI=0.000000
_PHI=92.46
_X=0.000000
_Y=0.000000
_Z=-1.000000
_DIVERGENCE=0.000000
_ANTISCATTER=0.000000
_DETECTOR=5
_DETECTORSLIT='unkn'
_AUX1=0.000000
_AUX2=0.000000
_AUX3=0.000000
_TIMESTARTED=4.000000
_TEMP_RATE=-1.000000
_TEMP_DELAY=-1.000000
_KV=40
_MA=35
_RANGE_WL=1.540600
_3DPLANE=0
_GONIOMETER=0.000000
_PSDCHANNEL0=0
_2THETACOUNTS
  -1.0000   1237750
  -0.9800   1245430
  -0.9600   1238010
  -0.9400   1238990
  -0.9200   1243590
  -0.9000   1245100
  -0.8800   1241480
  -0.8600   1243260
  -0.8400   1243070
  -0.8200   1244420
  -0.8000   1239600
  -0.7800   1243820
  -0.7600   1240850
  -0.7400   1240790
  -0.7200   1246570
  -0.7000   1246260
  -0.6800   1235490
  -0.6600   1241580
  -0.6400   1237680
  -0.6200   1239450
  -0.6000   1247690
  -0.5800   1245890
  -0.5600   1238090
  -0.5400   1237690
  -0.5200   1241430
  -0.5000   1238610
  -0.4800   1239300
  -0.4600   1242760
  -0.4400   1236180
  -0.4200   1243330
  -0.4000   1243720
  -0.3800   1240870
  -0.3600   1240640
  -0.3400   1238250
  -0.3200   1237550
  -0.3000   1242910
  -0.2800   1242430
  -0.2600   1238270
  -0.2400   1239070
  -0.2200   1238740
  -0.2000   1236590
  -0.1800   1235870
  -0.1600   1240720
  -0.1400   1240160
  -0.1200   1239400
  -0.1000   1240360
  -0.0800   1236250
  -0.0600   1236760
  -0.0400   1234990
  -0.0200   1236170
   0.0000   1237570
   0.0200   1241260
   0.0400   1242610
   0.0600   1247430
   0.0800   1259030
   0.1000   1260600
   0.1200   1248200
   0.1400   1190250
   0.1600   1068290
   0.1800    901019
   0.2000    731185
   0.2200    553972
   0.2400    376245
   0.2600    221382
   0.2800     97116
   0.3000     26785
   0.3200       508
   0.3400        86
   0.3600        46
   0.3800        32
   0.4000        25
   0.4200        25
   0.4400        28
   0.4600        18
   0.4800        21
   0.5000        32
   0.5200        53
   0.5400        86
   0.5600       113
   0.5800       167
   0.6000       231
   0.6200       333
   0.6400       578
   0.6600       854
   0.6800      1284
   0.7000      2201
   0.7200      4303
   0.7400      8011
   0.7600     11939
   0.7800     15659
   0.8000     35027
   0.8200     73759
   0.8400    112836
   0.8600    139850
   0.8800    142427
   0.9000    135926
   0.9200    125778
   0.9400    111119
   0.9600     93207
   0.9800     66496
   1.0000     30039